# Wavelength (um)  Transmission
  1.538000         0.0000
  1.538130         0.0000
  1.538260         0.0000
  1.538390         0.0000
  1.538520         0.0000
  1.538650         0.0000
  1.538780         0.0000
  1.538910         0.0000
  1.539040         0.0000
  1.539170         0.0000
  1.539300         0.0000
  1.539430         0.0000
  1.539560         0.0000
  1.539690         0.0000
  1.539820         0.0000
  1.539950         0.0000
  1.540080         0.0000
  1.540210         0.0000
  1.540340         0.0000
  1.540470         0.0000
  1.540600         0.0000
  1.540730         0.0000
  1.540860         0.0000
  1.540990         0.0000
  1.541120         0.0000
  1.541250         0.0000
  1.541380         1.0000
  1.541510         1.0000
  1.541640         1.0000
  1.541770         1.0000
  1.541900         1.0000
  1.542030         1.0000
  1.542160         1.0000
  1.542290         1.0000
  1.542420         1.0000
  1.542550         1.0000
  1.542680         1.0000
  1.542810         1.0000
  1.542940         1.0000
  1.543070         1.0000
  1.543200         1.0000
  1.543330         1.0000
  1.543460         1.0000
  1.543590         1.0000
  1.543720         1.0000
  1.543850         1.0000
  1.543980         1.0000
  1.544110         1.0000
  1.544240         1.0000
  1.544370         1.0000
  1.544500         1.0000
  1.544630         1.0000
  1.544760         1.0000
  1.544890         1.0000
  1.545020         1.0000
  1.545150         1.0000
  1.545280         1.0000
  1.545410         1.0000
  1.545540         1.0000
  1.545670         1.0000
  1.545800         1.0000
  1.545930         1.0000
  1.546060         1.0000
  1.546190         1.0000
  1.546320         1.0000
  1.546450         1.0000
  1.546580         1.0000
  1.546710         1.0000
  1.546840         1.0000
  1.546970         1.0000
  1.547100         1.0000
  1.547230         1.0000
  1.547360         1.0000
  1.547490         1.0000
  1.547620         1.0000
  1.547750         1.0000
  1.547880         1.0000
  1.548010         1.0000
  1.548140         1.0000
  1.548270         1.0000
  1.548400         1.0000
  1.548530         1.0000
  1.548660         1.0000
  1.548790         1.0000
  1.548920         1.0000
  1.549050         1.0000
  1.549180         1.0000
  1.549310         1.0000
  1.549440         1.0000
  1.549570         1.0000
  1.549700         1.0000
  1.549830         1.0000
  1.549960         1.0000
  1.550090         1.0000
  1.550220         1.0000
  1.550350         1.0000
  1.550480         1.0000
  1.550610         1.0000
  1.550740         1.0000
  1.550870         1.0000
  1.551000         1.0000
  1.551130         1.0000
  1.551260         1.0000
  1.551390         1.0000
  1.551520         1.0000
  1.551650         1.0000
  1.551780         1.0000
  1.551910         1.0000
  1.552040         1.0000
  1.552170         1.0000
  1.552300         1.0000
  1.552430         1.0000
  1.552560         1.0000
  1.552690         1.0000
  1.552820         1.0000
  1.552950         1.0000
  1.553080         1.0000
  1.553210         1.0000
  1.553340         1.0000
  1.553470         1.0000
  1.553600         1.0000
  1.553730         1.0000
  1.553860         1.0000
  1.553990         1.0000
  1.554120         1.0000
  1.554250         1.0000
  1.554380         1.0000
  1.554510         1.0000
  1.554640         1.0000
  1.554770         1.0000
  1.554900         1.0000
  1.555030         1.0000
  1.555160         1.0000
  1.555290         1.0000
  1.555420         1.0000
  1.555550         1.0000
  1.555680         1.0000
  1.555810         1.0000
  1.555940         1.0000
  1.556070         1.0000
  1.556200         1.0000
  1.556330         1.0000
  1.556460         1.0000
  1.556590         1.0000
  1.556720         1.0000
  1.556850         1.0000
  1.556980         1.0000
  1.557110         1.0000
  1.557240         1.0000
  1.557370         1.0000
  1.557500         1.0000
  1.557630         1.0000
  1.557760         1.0000
  1.557890         1.0000
  1.558020         1.0000
  1.558150         1.0000
  1.558280         1.0000
  1.558410         1.0000
  1.558540         1.0000
  1.558670         1.0000
  1.558800         1.0000
  1.558930         1.0000
  1.559060         1.0000
  1.559190         1.0000
  1.559320         1.0000
  1.559450         1.0000
  1.559580         1.0000
  1.559710         1.0000
  1.559840         1.0000
  1.559970         1.0000
  1.560100         1.0000
  1.560230         1.0000
  1.560360         1.0000
  1.560490         1.0000
  1.560620         1.0000
  1.560750         1.0000
  1.560880         1.0000
  1.561010         1.0000
  1.561140         1.0000
  1.561270         1.0000
  1.561400         1.0000
  1.561530         1.0000
  1.561660         1.0000
  1.561790         1.0000
  1.561920         1.0000
  1.562050         1.0000
  1.562180         1.0000
  1.562310         1.0000
  1.562440         1.0000
  1.562570         1.0000
  1.562700         1.0000
  1.562830         1.0000
  1.562960         1.0000
  1.563090         1.0000
  1.563220         1.0000
  1.563350         1.0000
  1.563480         1.0000
  1.563610         1.0000
  1.563740         1.0000
  1.563870         1.0000
  1.564000         1.0000
  1.564130         1.0000
  1.564260         1.0000
  1.564390         1.0000
  1.564520         1.0000
  1.564650         1.0000
  1.564780         1.0000
  1.564910         1.0000
  1.565040         1.0000
  1.565170         1.0000
  1.565300         1.0000
  1.565430         1.0000
  1.565560         1.0000
  1.565690         1.0000
  1.565820         1.0000
  1.565950         1.0000
  1.566080         1.0000
  1.566210         1.0000
  1.566340         1.0000
  1.566470         1.0000
  1.566600         1.0000
  1.566730         1.0000
  1.566860         1.0000
  1.566990         1.0000
  1.567120         1.0000
  1.567250         1.0000
  1.567380         1.0000
  1.567510         1.0000
  1.567640         1.0000
  1.567770         1.0000
  1.567900         1.0000
  1.568030         1.0000
  1.568160         1.0000
  1.568290         1.0000
  1.568420         1.0000
  1.568550         1.0000
  1.568680         1.0000
  1.568810         1.0000
  1.568940         1.0000
  1.569070         1.0000
  1.569200         1.0000
  1.569330         1.0000
  1.569460         1.0000
  1.569590         1.0000
  1.569720         1.0000
  1.569850         1.0000
  1.569980         1.0000
  1.570110         1.0000
  1.570240         1.0000
  1.570370         1.0000
  1.570500         1.0000
  1.570630         1.0000
  1.570760         1.0000
  1.570890         1.0000
  1.571020         1.0000
  1.571150         1.0000
  1.571280         1.0000
  1.571410         1.0000
  1.571540         1.0000
  1.571670         1.0000
  1.571800         1.0000
  1.571930         1.0000
  1.572060         1.0000
  1.572190         1.0000
  1.572320         1.0000
  1.572450         1.0000
  1.572580         1.0000
  1.572710         1.0000
  1.572840         1.0000
  1.572970         1.0000
  1.573100         1.0000
  1.573230         1.0000
  1.573360         1.0000
  1.573490         1.0000
  1.573620         1.0000
  1.573750         1.0000
  1.573880         0.0000
  1.574010         0.0000
  1.574140         0.0000
  1.574270         0.0000
  1.574400         0.0000
  1.574530         0.0000
  1.574660         0.0000
  1.574790         0.0000
  1.574920         0.0000
  1.575050         0.0000
  1.575180         0.0000
  1.575310         0.0000
  1.575440         0.0000
  1.575570         0.0000
  1.575700         0.0000
  1.575830         0.0000
  1.575960         0.0000
  1.576090         0.0000
  1.576220         0.0000
  1.576350         0.0000
  1.576480         0.0000
  1.576610         0.0000
  1.576740         0.0000
  1.576870         0.0000
  1.577000         0.0000
