# Wavelength (um)  Transmission
  1.500000         0.0000
  1.500150         0.0000
  1.500300         0.0000
  1.500450         0.0000
  1.500600         0.0000
  1.500750         0.0000
  1.500900         0.0000
  1.501050         0.0000
  1.501200         0.0000
  1.501350         0.0000
  1.501500         0.0000
  1.501650         0.0000
  1.501800         0.0000
  1.501950         0.0000
  1.502100         0.0000
  1.502250         0.0000
  1.502400         0.0000
  1.502550         0.0000
  1.502700         0.0000
  1.502850         0.0000
  1.503000         0.0000
  1.503150         0.0000
  1.503300         0.0000
  1.503450         0.0000
  1.503600         0.0000
  1.503750         0.0000
  1.503900         0.0000
  1.504050         0.0000
  1.504200         0.0000
  1.504350         0.0000
  1.504500         0.0000
  1.504650         0.0000
  1.504800         0.0000
  1.504950         0.0000
  1.505100         0.0000
  1.505250         0.0000
  1.505400         0.0000
  1.505550         0.0000
  1.505700         0.0000
  1.505850         0.0000
  1.506000         0.0000
  1.506150         0.0000
  1.506300         0.0000
  1.506450         0.0000
  1.506600         0.0000
  1.506750         0.0000
  1.506900         0.0000
  1.507050         0.0000
  1.507200         0.0000
  1.507350         0.0000
  1.507500         0.0000
  1.507650         0.0000
  1.507800         0.0000
  1.507950         0.0000
  1.508100         0.0000
  1.508250         0.0000
  1.508400         0.0000
  1.508550         0.0000
  1.508700         0.0000
  1.508850         0.0000
  1.509000         0.0000
  1.509150         0.0000
  1.509300         0.0000
  1.509450         0.0000
  1.509600         0.0000
  1.509750         0.0000
  1.509900         0.0000
  1.510050         1.0000
  1.510200         1.0000
  1.510350         1.0000
  1.510500         1.0000
  1.510650         1.0000
  1.510800         1.0000
  1.510950         1.0000
  1.511100         1.0000
  1.511250         1.0000
  1.511400         1.0000
  1.511550         1.0000
  1.511700         1.0000
  1.511850         1.0000
  1.512000         1.0000
  1.512150         1.0000
  1.512300         1.0000
  1.512450         1.0000
  1.512600         1.0000
  1.512750         1.0000
  1.512900         1.0000
  1.513050         1.0000
  1.513200         1.0000
  1.513350         1.0000
  1.513500         1.0000
  1.513650         1.0000
  1.513800         1.0000
  1.513950         1.0000
  1.514100         1.0000
  1.514250         1.0000
  1.514400         1.0000
  1.514550         1.0000
  1.514700         1.0000
  1.514850         1.0000
  1.515000         1.0000
  1.515150         1.0000
  1.515300         1.0000
  1.515450         1.0000
  1.515600         1.0000
  1.515750         1.0000
  1.515900         1.0000
  1.516050         1.0000
  1.516200         1.0000
  1.516350         1.0000
  1.516500         1.0000
  1.516650         1.0000
  1.516800         1.0000
  1.516950         1.0000
  1.517100         1.0000
  1.517250         1.0000
  1.517400         1.0000
  1.517550         1.0000
  1.517700         1.0000
  1.517850         1.0000
  1.518000         1.0000
  1.518150         1.0000
  1.518300         1.0000
  1.518450         1.0000
  1.518600         1.0000
  1.518750         1.0000
  1.518900         1.0000
  1.519050         1.0000
  1.519200         1.0000
  1.519350         1.0000
  1.519500         1.0000
  1.519650         1.0000
  1.519800         1.0000
  1.519950         1.0000
  1.520100         1.0000
  1.520250         1.0000
  1.520400         1.0000
  1.520550         1.0000
  1.520700         1.0000
  1.520850         1.0000
  1.521000         1.0000
  1.521150         1.0000
  1.521300         1.0000
  1.521450         1.0000
  1.521600         1.0000
  1.521750         1.0000
  1.521900         1.0000
  1.522050         1.0000
  1.522200         1.0000
  1.522350         1.0000
  1.522500         1.0000
  1.522650         1.0000
  1.522800         1.0000
  1.522950         1.0000
  1.523100         1.0000
  1.523250         1.0000
  1.523400         1.0000
  1.523550         1.0000
  1.523700         1.0000
  1.523850         1.0000
  1.524000         1.0000
  1.524150         1.0000
  1.524300         1.0000
  1.524450         1.0000
  1.524600         1.0000
  1.524750         1.0000
  1.524900         1.0000
  1.525050         1.0000
  1.525200         1.0000
  1.525350         1.0000
  1.525500         1.0000
  1.525650         1.0000
  1.525800         1.0000
  1.525950         1.0000
  1.526100         1.0000
  1.526250         1.0000
  1.526400         1.0000
  1.526550         1.0000
  1.526700         1.0000
  1.526850         1.0000
  1.527000         1.0000
  1.527150         1.0000
  1.527300         1.0000
  1.527450         1.0000
  1.527600         1.0000
  1.527750         1.0000
  1.527900         1.0000
  1.528050         1.0000
  1.528200         1.0000
  1.528350         1.0000
  1.528500         1.0000
  1.528650         1.0000
  1.528800         1.0000
  1.528950         1.0000
  1.529100         1.0000
  1.529250         1.0000
  1.529400         1.0000
  1.529550         1.0000
  1.529700         1.0000
  1.529850         1.0000
  1.530000         1.0000
  1.530150         1.0000
  1.530300         1.0000
  1.530450         1.0000
  1.530600         1.0000
  1.530750         1.0000
  1.530900         1.0000
  1.531050         1.0000
  1.531200         1.0000
  1.531350         1.0000
  1.531500         1.0000
  1.531650         1.0000
  1.531800         1.0000
  1.531950         1.0000
  1.532100         1.0000
  1.532250         1.0000
  1.532400         1.0000
  1.532550         1.0000
  1.532700         1.0000
  1.532850         1.0000
  1.533000         1.0000
  1.533150         1.0000
  1.533300         1.0000
  1.533450         1.0000
  1.533600         1.0000
  1.533750         1.0000
  1.533900         1.0000
  1.534050         1.0000
  1.534200         1.0000
  1.534350         1.0000
  1.534500         1.0000
  1.534650         1.0000
  1.534800         1.0000
  1.534950         1.0000
  1.535100         1.0000
  1.535250         1.0000
  1.535400         1.0000
  1.535550         1.0000
  1.535700         1.0000
  1.535850         1.0000
  1.536000         1.0000
  1.536150         1.0000
  1.536300         1.0000
  1.536450         1.0000
  1.536600         1.0000
  1.536750         1.0000
  1.536900         1.0000
  1.537050         1.0000
  1.537200         1.0000
  1.537350         1.0000
  1.537500         1.0000
  1.537650         1.0000
  1.537800         1.0000
  1.537950         1.0000
  1.538100         1.0000
  1.538250         1.0000
  1.538400         1.0000
  1.538550         1.0000
  1.538700         1.0000
  1.538850         1.0000
  1.539000         1.0000
  1.539150         1.0000
  1.539300         1.0000
  1.539450         1.0000
  1.539600         1.0000
  1.539750         1.0000
  1.539900         1.0000
  1.540050         1.0000
  1.540200         1.0000
  1.540350         1.0000
  1.540500         1.0000
  1.540650         1.0000
  1.540800         1.0000
  1.540950         1.0000
  1.541100         1.0000
  1.541250         1.0000
  1.541400         1.0000
  1.541550         1.0000
  1.541700         1.0000
  1.541850         1.0000
  1.542000         1.0000
  1.542150         1.0000
  1.542300         1.0000
  1.542450         1.0000
  1.542600         1.0000
  1.542750         1.0000
  1.542900         1.0000
  1.543050         1.0000
  1.543200         1.0000
  1.543350         1.0000
  1.543500         1.0000
  1.543650         1.0000
  1.543800         1.0000
  1.543950         1.0000
  1.544100         1.0000
  1.544250         1.0000
  1.544400         1.0000
  1.544550         1.0000
  1.544700         1.0000
  1.544850         1.0000
  1.545000         0.0000
  1.545150         0.0000
  1.545300         0.0000
  1.545450         0.0000
  1.545600         0.0000
  1.545750         0.0000
  1.545900         0.0000
  1.546050         0.0000
  1.546200         0.0000
  1.546350         0.0000
  1.546500         0.0000
  1.546650         0.0000
  1.546800         0.0000
  1.546950         0.0000
  1.547100         0.0000
  1.547250         0.0000
  1.547400         0.0000
  1.547550         0.0000
  1.547700         0.0000
  1.547850         0.0000
  1.548000         0.0000
  1.548150         0.0000
  1.548300         0.0000
  1.548450         0.0000
  1.548600         0.0000
  1.548750         0.0000
  1.548900         0.0000
  1.549050         0.0000
  1.549200         0.0000
  1.549350         0.0000
  1.549500         0.0000
  1.549650         0.0000
  1.549800         0.0000
  1.549950         0.0000
  1.550100         0.0000
  1.550250         0.0000
  1.550400         0.0000
  1.550550         0.0000
  1.550700         0.0000
  1.550850         0.0000
  1.551000         0.0000
  1.551150         0.0000
  1.551300         0.0000
  1.551450         0.0000
  1.551600         0.0000
  1.551750         0.0000
  1.551900         0.0000
  1.552050         0.0000
  1.552200         0.0000
  1.552350         0.0000
  1.552500         0.0000
  1.552650         0.0000
  1.552800         0.0000
  1.552950         0.0000
  1.553100         0.0000
  1.553250         0.0000
  1.553400         0.0000
  1.553550         0.0000
  1.553700         0.0000
  1.553850         0.0000
  1.554000         0.0000
  1.554150         0.0000
  1.554300         0.0000
  1.554450         0.0000
  1.554600         0.0000
  1.554750         0.0000
  1.554900         0.0000
