# Wavelength (um)  Transmission
  1.605000         0.0000
  1.605150         0.0000
  1.605300         0.0000
  1.605450         0.0000
  1.605600         0.0000
  1.605750         0.0000
  1.605900         0.0000
  1.606050         0.0000
  1.606200         0.0000
  1.606350         0.0000
  1.606500         0.0000
  1.606650         0.0000
  1.606800         0.0000
  1.606950         0.0000
  1.607100         0.0000
  1.607250         0.0000
  1.607400         0.0000
  1.607550         0.0000
  1.607700         0.0000
  1.607850         0.0000
  1.608000         0.0000
  1.608150         0.0000
  1.608300         0.0000
  1.608450         0.0000
  1.608600         0.0000
  1.608750         0.0000
  1.608900         0.0000
  1.609050         0.0000
  1.609200         0.0000
  1.609350         0.0000
  1.609500         0.0000
  1.609650         0.0000
  1.609800         0.0000
  1.609950         0.0000
  1.610100         0.0000
  1.610250         0.0000
  1.610400         0.0000
  1.610550         0.0000
  1.610700         0.0000
  1.610850         0.0000
  1.611000         0.0000
  1.611150         0.0000
  1.611300         0.0000
  1.611450         0.0000
  1.611600         0.0000
  1.611750         0.0000
  1.611900         0.0000
  1.612050         0.0000
  1.612200         0.0000
  1.612350         0.0000
  1.612500         0.0000
  1.612650         0.0000
  1.612800         0.0000
  1.612950         0.0000
  1.613100         0.0000
  1.613250         0.0000
  1.613400         0.0000
  1.613550         0.0000
  1.613700         0.0000
  1.613850         0.0000
  1.614000         0.0000
  1.614150         0.0000
  1.614300         0.0000
  1.614450         0.0000
  1.614600         0.0000
  1.614750         0.0000
  1.614900         0.0000
  1.615050         1.0000
  1.615200         1.0000
  1.615350         1.0000
  1.615500         1.0000
  1.615650         1.0000
  1.615800         1.0000
  1.615950         1.0000
  1.616100         1.0000
  1.616250         1.0000
  1.616400         1.0000
  1.616550         1.0000
  1.616700         1.0000
  1.616850         1.0000
  1.617000         1.0000
  1.617150         1.0000
  1.617300         1.0000
  1.617450         1.0000
  1.617600         1.0000
  1.617750         1.0000
  1.617900         1.0000
  1.618050         1.0000
  1.618200         1.0000
  1.618350         1.0000
  1.618500         1.0000
  1.618650         1.0000
  1.618800         1.0000
  1.618950         1.0000
  1.619100         1.0000
  1.619250         1.0000
  1.619400         1.0000
  1.619550         1.0000
  1.619700         1.0000
  1.619850         1.0000
  1.620000         1.0000
  1.620150         1.0000
  1.620300         1.0000
  1.620450         1.0000
  1.620600         1.0000
  1.620750         1.0000
  1.620900         1.0000
  1.621050         1.0000
  1.621200         1.0000
  1.621350         1.0000
  1.621500         1.0000
  1.621650         1.0000
  1.621800         1.0000
  1.621950         1.0000
  1.622100         1.0000
  1.622250         1.0000
  1.622400         1.0000
  1.622550         1.0000
  1.622700         1.0000
  1.622850         1.0000
  1.623000         1.0000
  1.623150         1.0000
  1.623300         1.0000
  1.623450         1.0000
  1.623600         1.0000
  1.623750         1.0000
  1.623900         1.0000
  1.624050         1.0000
  1.624200         1.0000
  1.624350         1.0000
  1.624500         1.0000
  1.624650         1.0000
  1.624800         1.0000
  1.624950         1.0000
  1.625100         1.0000
  1.625250         1.0000
  1.625400         1.0000
  1.625550         1.0000
  1.625700         1.0000
  1.625850         1.0000
  1.626000         1.0000
  1.626150         1.0000
  1.626300         1.0000
  1.626450         1.0000
  1.626600         1.0000
  1.626750         1.0000
  1.626900         1.0000
  1.627050         1.0000
  1.627200         1.0000
  1.627350         1.0000
  1.627500         1.0000
  1.627650         1.0000
  1.627800         1.0000
  1.627950         1.0000
  1.628100         1.0000
  1.628250         1.0000
  1.628400         1.0000
  1.628550         1.0000
  1.628700         1.0000
  1.628850         1.0000
  1.629000         1.0000
  1.629150         1.0000
  1.629300         1.0000
  1.629450         1.0000
  1.629600         1.0000
  1.629750         1.0000
  1.629900         1.0000
  1.630050         1.0000
  1.630200         1.0000
  1.630350         1.0000
  1.630500         1.0000
  1.630650         1.0000
  1.630800         1.0000
  1.630950         1.0000
  1.631100         1.0000
  1.631250         1.0000
  1.631400         1.0000
  1.631550         1.0000
  1.631700         1.0000
  1.631850         1.0000
  1.632000         1.0000
  1.632150         1.0000
  1.632300         1.0000
  1.632450         1.0000
  1.632600         1.0000
  1.632750         1.0000
  1.632900         1.0000
  1.633050         1.0000
  1.633200         1.0000
  1.633350         1.0000
  1.633500         1.0000
  1.633650         1.0000
  1.633800         1.0000
  1.633950         1.0000
  1.634100         1.0000
  1.634250         1.0000
  1.634400         1.0000
  1.634550         1.0000
  1.634700         1.0000
  1.634850         1.0000
  1.635000         1.0000
  1.635150         1.0000
  1.635300         1.0000
  1.635450         1.0000
  1.635600         1.0000
  1.635750         1.0000
  1.635900         1.0000
  1.636050         1.0000
  1.636200         1.0000
  1.636350         1.0000
  1.636500         1.0000
  1.636650         1.0000
  1.636800         1.0000
  1.636950         1.0000
  1.637100         1.0000
  1.637250         1.0000
  1.637400         1.0000
  1.637550         1.0000
  1.637700         1.0000
  1.637850         1.0000
  1.638000         1.0000
  1.638150         1.0000
  1.638300         1.0000
  1.638450         1.0000
  1.638600         1.0000
  1.638750         1.0000
  1.638900         1.0000
  1.639050         1.0000
  1.639200         1.0000
  1.639350         1.0000
  1.639500         1.0000
  1.639650         1.0000
  1.639800         1.0000
  1.639950         1.0000
  1.640100         1.0000
  1.640250         1.0000
  1.640400         1.0000
  1.640550         1.0000
  1.640700         1.0000
  1.640850         1.0000
  1.641000         1.0000
  1.641150         1.0000
  1.641300         1.0000
  1.641450         1.0000
  1.641600         1.0000
  1.641750         1.0000
  1.641900         1.0000
  1.642050         1.0000
  1.642200         1.0000
  1.642350         1.0000
  1.642500         1.0000
  1.642650         1.0000
  1.642800         1.0000
  1.642950         1.0000
  1.643100         1.0000
  1.643250         1.0000
  1.643400         1.0000
  1.643550         1.0000
  1.643700         1.0000
  1.643850         1.0000
  1.644000         1.0000
  1.644150         1.0000
  1.644300         1.0000
  1.644450         1.0000
  1.644600         1.0000
  1.644750         1.0000
  1.644900         1.0000
  1.645050         1.0000
  1.645200         1.0000
  1.645350         1.0000
  1.645500         1.0000
  1.645650         1.0000
  1.645800         1.0000
  1.645950         1.0000
  1.646100         1.0000
  1.646250         1.0000
  1.646400         1.0000
  1.646550         1.0000
  1.646700         1.0000
  1.646850         1.0000
  1.647000         1.0000
  1.647150         1.0000
  1.647300         1.0000
  1.647450         1.0000
  1.647600         1.0000
  1.647750         1.0000
  1.647900         1.0000
  1.648050         1.0000
  1.648200         1.0000
  1.648350         1.0000
  1.648500         1.0000
  1.648650         1.0000
  1.648800         1.0000
  1.648950         1.0000
  1.649100         1.0000
  1.649250         1.0000
  1.649400         1.0000
  1.649550         1.0000
  1.649700         1.0000
  1.649850         1.0000
  1.650000         0.0000
  1.650150         0.0000
  1.650300         0.0000
  1.650450         0.0000
  1.650600         0.0000
  1.650750         0.0000
  1.650900         0.0000
  1.651050         0.0000
  1.651200         0.0000
  1.651350         0.0000
  1.651500         0.0000
  1.651650         0.0000
  1.651800         0.0000
  1.651950         0.0000
  1.652100         0.0000
  1.652250         0.0000
  1.652400         0.0000
  1.652550         0.0000
  1.652700         0.0000
  1.652850         0.0000
  1.653000         0.0000
  1.653150         0.0000
  1.653300         0.0000
  1.653450         0.0000
  1.653600         0.0000
  1.653750         0.0000
  1.653900         0.0000
  1.654050         0.0000
  1.654200         0.0000
  1.654350         0.0000
  1.654500         0.0000
  1.654650         0.0000
  1.654800         0.0000
  1.654950         0.0000
  1.655100         0.0000
  1.655250         0.0000
  1.655400         0.0000
  1.655550         0.0000
  1.655700         0.0000
  1.655850         0.0000
  1.656000         0.0000
  1.656150         0.0000
  1.656300         0.0000
  1.656450         0.0000
  1.656600         0.0000
  1.656750         0.0000
  1.656900         0.0000
  1.657050         0.0000
  1.657200         0.0000
  1.657350         0.0000
  1.657500         0.0000
  1.657650         0.0000
  1.657800         0.0000
  1.657950         0.0000
  1.658100         0.0000
  1.658250         0.0000
  1.658400         0.0000
  1.658550         0.0000
  1.658700         0.0000
  1.658850         0.0000
  1.659000         0.0000
  1.659150         0.0000
  1.659300         0.0000
  1.659450         0.0000
  1.659600         0.0000
  1.659750         0.0000
  1.659900         0.0000
